Folder: aif_tutorial/Files

Note: README.md
# aif_tutorial
Tutorial for formatting Adsorption Isotherms in AIF Format

File: CH4_RM8850_Exp.aif
data_CH4_RM8850
_exptl_adsorptive VNWKTOKETHGBQD-UHFFFAOYSA-N
_exptl_temperature 298
_sample_material_id 'Zeolite Y'
_units_temperature K
_units_pressure MegaPa
_units_loading MilliMOL_PER_GM
_isotherm_type excess
_exptl_adsorptive_name CH4
_adsorbent_info 'NIST RM-8850'
_exptl_method manometric
_exptl_operator 'Christopher Sims'

loop_
_adsorp_pressure
_adsorp_amount
_adsorp_amount_uncertainty
0.000029    0.000579    0.000019
0.071288    0.282070    0.010137
0.168060    0.642275    0.019439
0.268172    0.989427    0.024757
0.372416    1.315009    0.038207
0.479653    1.615110    0.059994
0.589534    1.884142    0.045769
0.688235    2.095538    0.083081
0.795883    2.296191    0.072428
0.896598    2.464596    0.057003
0.996046    2.609806    0.082213
1.186761    2.842812    0.075022
1.406883    3.060028    0.066370
1.605250    3.218843    0.091777
1.819001    3.361013    0.085482
2.026540    3.476169    0.095324
2.231409    3.569069    0.074919
2.433216    3.647970    0.113606
2.634022    3.714282    0.074581
2.848337    3.774437    0.142995
3.028884    3.816274    0.097945
3.530694    3.909312    0.111395
3.932648    3.962675    0.132450
4.422912    4.003254    0.103386
4.875136    4.026213    0.138835
5.308160    4.034220    0.090598
5.796363    4.042299    0.125488
6.231372    4.030501    0.118167
6.687830    4.023547    0.152540

File: Xe_Vycor_Exp.aif
data_Xe_Vycor
_exptl_adsorptive FHNFHKCVQCLJFQ-UHFFFAOYSA-N
_exptl_temperature 131.47
_sample_material_id 'Vycor Glass'
_sample_mass 61.6
_units_temperature K
_units_pressure Bar
_units_loading MilliMOL_PER_GM
_units_mass MilliGM
_isotherm_type excess
_exptl_adsorptive_name Xenon
_exptl_method manometric
_exptl_operator 'AJ Brown'
_exptl_date 1963

loop_
_adsorp_pressure
_adsorp_p0
_adsorp_amount
_adsorp_amount_uncertainty
0.0001  0.0608  0.3400  0.0074
0.0049  0.0608  0.6022  0.0037
0.0108  0.0608  0.8470  0.0062
0.0181  0.0608  1.1079  0.0074
0.0203  0.0608  1.1820  0.0037
0.0222  0.0608  1.2538  0.0074
0.0252  0.0608  1.3700  0.0111
0.0279  0.0608  1.4850  0.0049
0.0304  0.0608  1.6049  0.0012
0.0362  0.0608  1.9338  0.0049
0.0392  0.0608  2.1972  0.0000
0.0412  0.0608  2.3728  0.0049
0.0438  0.0608  2.6633  0.0037
0.0464  0.0608  2.9625  0.0000
0.0486  0.0608  3.3075  0.0087
0.0511  0.0608  3.6438  0.0049
0.0538  0.0608  3.9727  0.0062
0.0554  0.0608  4.1260  0.0037
0.0577  0.0608  4.1978  0.0111
0.0603  0.0608  4.2583  0.0111
0.0608  0.0608  4.2868  0.0087

loop_
_desorp_pressure
_desorp_p0
_desorp_amount
_desorp_amount_uncertainty
0.0608  0.0608  4.2868  0.0087
0.0599  0.0608  4.2621  0.0087
0.0565  0.0608  4.2571  0.0049
0.0529  0.0608  4.2497  0.0049
0.0494  0.0608  4.2410  0.0000
0.0445  0.0608  4.2064  0.0025
0.0398  0.0608  4.1817  0.0012
0.0377  0.0608  4.1545  0.0074
0.0357  0.0608  4.1038  0.0062
0.0340  0.0608  3.9307  0.0000
0.0328  0.0608  3.5214  0.0037
0.0317  0.0608  2.9564  0.0049
0.0311  0.0608  2.4197  0.0012
0.0294  0.0608  2.0327  0.0074
0.0280  0.0608  1.8027  0.0049
0.0269  0.0608  1.6568  0.0062
0.0256  0.0608  1.5381  0.0012
0.0243  0.0608  1.4467  0.0111
0.0230  0.0608  1.3663  0.0074
0.0219  0.0608  1.3082  0.0074
0.0208  0.0608  1.2501  0.0062
0.0197  0.0608  1.1808  0.0099
0.0179  0.0608  1.1289  0.0025
0.0161  0.0608  1.0473  0.0099
0.0140  0.0608  0.9545  0.0062
0.0115  0.0608  0.8742  0.0000
0.0062  0.0608  0.6553  0.0025
0.0031  0.0608  0.5045  0.0025
0.0019  0.0608  0.4142  0.0000
0.0001  0.0608  0.3400  0.0074